from CRC Handbook of Chemistry and Physics 79th ed.,,
nitrogen emission lines,,
relative Intensity,wavelength,charge
60,299.843,4
220,300.683,1
90,307.825,3
120,336.734,2
360,343.715,1
90,346.337,3
570,347.871,3
500,348.299,3
400,348.496,3
90,374.754,3
90,375.467,2
120,377.105,2
285,383.837,1
360,391.9,1
90,393.852,2
450,395.585,1
1000,399.5,1
150,399.863,2
200,400.358,2
360,403.508,1
550,404.131,1
360,404.353,1
150,405.776,3
250,409.733,2
140,409.994,0
200,410.343,2
185,410.995,0
285,417.616,1
120,419.576,2
150,420.01,2
285,422.774,1
285,423.691,1
220,423.705,1
450,424.178,1
90,433.291,2
120,434.568,2
300,437.911,2
285,443.274,1
650,444.703,1
90,451.091,2
120,451.486,2
360,453.041,1
550,460.148,1
350,460.373,4
90,460.633,3
450,460.716,1
360,461.387,1
250,461.998,4
450,462.139,1
870,463.054,1
90,463.414,2
120,464.064,2
550,464.308,1
285,478.813,1
450,480.329,1
180,484.738,0
90,485.882,2
150,486.715,2
285,489.511,1
160,491.494,0
210,493.512,0
200,494.456,4
160,495.023,0
350,496.398,0
285,498.737,1
450,499.436,1
650,500.148,1
360,500.27,1
870,500.515,1
550,500.732,1
450,501.062,1
360,501.639,1
360,502.566,1
550,504.51,1
185,528.12,0
140,529.268,0
90,531.435,2
200,532.082,2
150,532.718,2
450,549.567,1
285,553.536,1
650,566.663,1
550,567.602,1
870,567.956,1
450,568.621,1
450,571.077,1
285,574.73,1
700,575.25,0
240,576.475,0
265,582.954,0
235,585.404,0
360,592.781,1
550,593.178,1
285,594.024,1
650,594.165,1
285,595.239,1
160,599.943,0
210,600.847,0
285,616.776,1
360,637.962,1
150,638.077,3
185,641.165,0
210,642.064,0
210,642.302,0
210,642.832,0
185,643.768,0
235,644.094,0
90,645.411,2
185,645.79,0
120,646.702,2
300,646.844,0
265,648.171,0
750,648.205,1
360,648.27,0
300,648.375,0
325,648.48,0
160,649.122,0
210,649.954,0
185,650.631,0
750,661.056,1
185,662.254,0
185,663.694,0
235,664.496,0
185,664.65,0
235,665.346,0
210,665.651,0
185,672.262,0
210,739.864,0
160,740.612,0
65,740.624,0
685,742.364,0
785,744.229,0
900,746.831,0
185,760.88,0
60,761.846,4
450,776.224,1
400,818.487,0
400,818.802,0
250,820.036,0
300,821.072,0
570,821.634,0
400,822.314,0
400,824.239,0
550,843.874,1
500,856.774,0
570,859.4,0
650,862.924,0
500,865.589,0
220,867.608,1
700,868.028,0
650,868.34,0
500,868.615,0
110,868.743,1
110,869.9,1
500,870.325,0
160,871.054,1
570,871.17,0
500,871.883,0
250,872.889,0
200,874.736,0
500,938.68,0
570,939.279,0
250,946.068,0
200,986.333,0
160,986.541,1
110,986.821,1
160,988.739,1
220,989.109,1
160,996.186,1
220,996.934,1
285,1002.327,1
