Silicon atomic emission lines,,
From NIST online database,,
Intensity,Wavelength,charge
50,300.6739,0
5,301.309,2
75,302.0004,0
20,302.155,1
100,303,1
6,303.473,2
8,303.729,2
9,304.093,2
20,304.157,1
30,304.219,1
100,304.369,1
10,304.385,1
7,304.393,2
5,304.508,2
10,304.577,1
50,304.83,1
150,305.318,1
7,306.824,2
25,308.624,2
6,308.646,2
20,309.342,2
5,309.365,2
16,309.683,2
6,312.627,2
7,314.737,2
7,314.956,3
8,316.161,2
9,316.571,3
16,318.513,2
13,318.602,2
150,318.897,1
50,319.225,1
150,319.309,1
50,319.421,1
50,319.469,1
100,319.541,1
14,319.65,2
200,319.951,1
20,320.249,1
100,320.387,1
200,321.003,1
15,321.055,2
75,321.466,1
7,321.625,2
15,321.799,1
10,322.044,1
20,322.301,1
12,323.05,2
14,323.395,2
15,324.162,2
1,324.419,3
7,325.34,2
5,325.374,2
7,325.48,2
12,325.866,2
6,327.046,2
10,327.626,2
7,327.926,2
300,333.314,1
500,333.982,1
15,348.691,2
9,352.594,2
8,356.967,2
20,359.047,2
8,362.254,2
5,363.945,2
6,364.512,2
7,368.14,2
5,368.215,2
8,376.244,3
6,377.315,3
20,379.141,2
25,379.611,2
30,380.654,2
7,384.246,2
100,385.366,1
500,385.602,1
200,386.26,1
300,390.5523,0
20,392.447,2
6,394.749,2
10,395.574,1
6,396.384,2
10,397.746,1
5,398.124,2
15,399.177,1
10,399.801,1
1,403.139,3
2,403.806,3
20,407.545,1
15,407.678,1
10,408.885,3
5,410.186,2
8,410.242,2
70,410.2936,0
5,411.55,2
9,411.61,3
300,412.807,1
500,413.089,1
10,418.335,1
100,419.072,1
50,419.813,1
7,421.241,3
7,421.241,3
3,431.41,3
5,432.818,3
9,433.85,2
8,434.14,2
8,437.763,2
2,440.373,3
2,440.373,3
2,440.373,3
6,440.59,2
8,440.672,2
1,441.165,3
6,449.405,2
30,455.262,2
8,455.4,2
25,456.782,2
20,457.476,2
1,461.127,3
1,461.127,3
7,461.966,2
100,462.142,1
150,462.172,1
3,462.862,3
9,463.124,3
7,463.828,2
10,465.432,3
3,465.692,3
8,466.587,2
1,466.714,3
2,467.33,3
9,468.302,2
7,468.38,2
16,471.665,2
7,473.052,2
50,478.2991,0
35,479.2212,0
80,479.2324,0
8,480.043,2
15,481.333,2
16,481.972,2
18,482.897,2
15,488.32,1
20,490.699,1
20,493.28,1
1,494.745,3
30,494.7607,0
3,495.011,3
3,495.011,3
3,495.011,3
40,500.6061,0
1000,504.103,1
1000,505.598,1
10,509.142,2
7,511.376,2
8,511.412,2
100,518.19,1
100,518.525,1
200,519.286,1
5,519.726,2
500,520.241,1
30,529.519,1
2,530.497,3
2,530.497,3
1,530.949,3
100,540.534,1
15,541.724,1
15,542.892,1
15,543.289,1
100,543.862,1
20,544.726,1
6,545.146,2
15,545.449,1
100,545.645,1
500,546.643,1
500,546.687,1
100,546.921,1
7,547.305,2
40,549.323,0
200,549.645,1
35,551.7535,0
100,554.074,1
150,557.666,1
30,562.2221,0
100,563.297,1
200,563.948,1
90,564.5611,0
150,566.066,1
80,566.5554,0
1000,566.956,1
30,568.144,1
120,568.4484,0
300,568.881,1
100,569.0425,0
90,570.1105,0
200,570.137,1
7,570.46,2
100,570.637,1
160,570.8397,0
8,571.629,2
20,573.973,2
45,574.7667,0
45,575.3625,0
45,575.422,0
45,576.2977,0
70,577.2145,0
70,578.0384,0
30,578.573,1
90,579.3071,0
30,579.49,1
100,579.7859,0
150,580.047,1
200,580.674,1
30,582.78,1
50,584.613,1
10,586.748,1
300,586.84,1
40,587.3764,0
10,589.879,2
150,591.522,1
200,594.8545,0
500,595.756,1
500,597.893,1
10,606.745,1
20,608.006,1
10,608.667,1
90,612.5021,0
85,613.1574,0
90,613.185,0
100,614.2487,0
100,614.5015,0
160,615.5134,0
160,623.732,0
40,623.8287,0
125,624.3813,0
125,624.4468,0
180,625.4188,0
7,631.446,2
45,633.1954,0
1000,634.71,1
1000,637.136,1
6,652.436,2
45,652.6609,0
45,652.7199,0
45,655.5462,0
50,666.052,1
15,666.5,1
5,666.756,3
100,667.188,1
20,669.938,1
7,670.121,3
50,671.704,1
100,672.1853,0
30,674.164,0
20,675.028,1
30,681.845,1
50,682.982,1
6,683.156,2
30,684.8568,0
7,685.165,2
80,697.6523,0
3,699.836,3
3,699.836,3
3,699.836,3
180,700.3567,0
180,700.5883,0
30,701.728,0
90,701.7646,0
250,703.4903,0
6,704.794,3
4,706.841,3
70,716.469,0
200,716.5545,0
70,718.489,0
65,719.358,0
30,719.39,0
100,722.6206,0
100,723.5326,0
60,723.582,0
180,725.0625,0
160,727.5294,0
40,728.281,0
400,728.9173,0
55,729.026,0
35,737.3,0
375,740.5774,0
200,740.9082,0
40,741.535,0
275,741.5946,0
425,742.3497,0
85,742.46,0
5,746.189,2
8,746.262,2
9,746.632,2
12,761.236,2
2,763.05,3
4,765.456,3
4,767.875,3
100,768.0267,0
5,771.879,3
6,772.382,3
2,772.564,3
1,773.047,3
40,774.271,0
1,775.291,3
30,780.0008,0
400,784.88,1
500,784.972,1
30,784.9967,0
90,791.8386,0
120,793.2349,0
140,794.4001,0
35,797.0306,0
35,803.5619,0
70,809.3241,0
9,810.286,2
11,810.345,2
7,819.043,2
6,819.116,2
8,819.168,2
35,823.0642,0
1,824.061,3
1,824.061,3
1,824.061,3
9,826.257,2
5,826.564,2
8,826.932,2
5,827.138,2
6,827.194,2
40,844.3982,0
40,850.1547,0
60,850.2221,0
40,853.6165,0
120,855.678,0
50,864.8462,0
40,872.8011,0
75,874.2451,0
100,875.2009,0
35,879.0389,0
2,895.725,3
1,901.816,3
100,941.272,1
100,941.3506,0
